stim,type,encoding_trials_block.thisRepN,encoding_trials_block.thisTrialN,encoding_trials_block.thisN,encoding_trials_block.thisIndex,rcg_block.thisRepN,rcg_block.thisTrialN,rcg_block.thisN,rcg_block.thisIndex,welcome_text.started,welcome_text.stopped,welcome_resp.keys,welcome_resp.rt,welcome_resp.started,welcome_resp.stopped,fixation.started,fixation.stopped,encoding_img.started,encoding_img.stopped,recognition_img.started,recognition_img.stopped,recognition_img_resp.keys,recognition_img_resp.rt,recognition_img_resp.started,recognition_img_resp.stopped,recognition_resp_prompt_main.started,recognition_resp_prompt_main.stopped,recognition_resp_prompt_options.started,recognition_resp_prompt_options.stopped,confidence_resp_prompt_main.started,confidence_resp_prompt_main.stopped,confidence_ratebar.started,confidence_ratebar.stopped,confidence_resp.keys,confidence_resp.started,confidence_resp.stopped,confidence_resp.rt,participant,date,expName,psychopyVersion,frameRate,
,,,,,,,,,,12.792821239003388,None,m,20.99280187900149,12.792821239003388,None,,,,,,,,,,,,,,,,,,,,,,,40023,2022_Jul_13_1556,mstfoil,2022.1.3,60.174211079947014,
SetC/187a.jpg,,0,0,0,0,,,,,,,,,,,47.41632263400243,None,47.925844218996644,None,,,,,,,,,,,,,,,,,,,40023,2022_Jul_13_1556,mstfoil,2022.1.3,60.174211079947014,
SetC/142a.jpg,,0,1,1,1,,,,,,,,,,,49.91815346200019,None,50.43422745999851,None,,,,,,,,,,,,,,,,,,,40023,2022_Jul_13_1556,mstfoil,2022.1.3,60.174211079947014,
SetD/153a.jpg,,0,2,2,2,,,,,,,,,,,52.41769400500198,None,52.91801475900138,None,,,,,,,,,,,,,,,,,,,40023,2022_Jul_13_1556,mstfoil,2022.1.3,60.174211079947014,
SetD/137a.jpg,,0,3,3,3,,,,,,,,,,,54.919474180998805,None,55.425114967998525,None,,,,,,,,,,,,,,,,,,,40023,2022_Jul_13_1556,mstfoil,2022.1.3,60.174211079947014,
SetC/190a.jpg,,0,4,4,4,,,,,,,,,,,57.41897067300306,None,57.92543609900167,None,,,,,,,,,,,,,,,,,,,40023,2022_Jul_13_1556,mstfoil,2022.1.3,60.174211079947014,
SetC/039a.jpg,,0,5,5,5,,,,,,,,,,,59.92100098499941,None,60.41974063299858,None,,,,,,,,,,,,,,,,,,,40023,2022_Jul_13_1556,mstfoil,2022.1.3,60.174211079947014,
SetC/141a.jpg,,0,6,6,6,,,,,,,,,,,62.42089373899944,None,62.92485487499653,None,,,,,,,,,,,,,,,,,,,40023,2022_Jul_13_1556,mstfoil,2022.1.3,60.174211079947014,
SetD/031a.jpg,,0,7,7,7,,,,,,,,,,,64.92175752000185,None,65.42497001899756,None,,,,,,,,,,,,,,,,,,,40023,2022_Jul_13_1556,mstfoil,2022.1.3,60.174211079947014,
SetD/109a.jpg,,0,8,8,8,,,,,,,,,,,67.42212169800041,None,67.92282180100301,None,,,,,,,,,,,,,,,,,,,40023,2022_Jul_13_1556,mstfoil,2022.1.3,60.174211079947014,
SetC/002a.jpg,,0,9,9,9,,,,,,,,,,,69.92268912000145,None,70.42317973999889,None,,,,,,,,,,,,,,,,,,,40023,2022_Jul_13_1556,mstfoil,2022.1.3,60.174211079947014,
SetD/011a.jpg,,0,10,10,10,,,,,,,,,,,72.42314334600087,None,72.92328970399831,None,,,,,,,,,,,,,,,,,,,40023,2022_Jul_13_1556,mstfoil,2022.1.3,60.174211079947014,
SetD/063a.jpg,,0,11,11,11,,,,,,,,,,,74.92444792800234,None,75.44100377900031,None,,,,,,,,,,,,,,,,,,,40023,2022_Jul_13_1556,mstfoil,2022.1.3,60.174211079947014,
SetC/019a.jpg,,0,12,12,12,,,,,,,,,,,77.42374933599785,None,77.92432333200122,None,,,,,,,,,,,,,,,,,,,40023,2022_Jul_13_1556,mstfoil,2022.1.3,60.174211079947014,
SetD/018a.jpg,,0,13,13,13,,,,,,,,,,,79.92597636800201,None,80.441124691999,None,,,,,,,,,,,,,,,,,,,40023,2022_Jul_13_1556,mstfoil,2022.1.3,60.174211079947014,
SetC/069a.jpg,,0,14,14,14,,,,,,,,,,,82.42522577699856,None,82.9265363250015,None,,,,,,,,,,,,,,,,,,,40023,2022_Jul_13_1556,mstfoil,2022.1.3,60.174211079947014,
SetD/161a.jpg,,0,15,15,15,,,,,,,,,,,84.92653175500163,None,85.44105938400025,None,,,,,,,,,,,,,,,,,,,40023,2022_Jul_13_1556,mstfoil,2022.1.3,60.174211079947014,
SetD/098a.jpg,,0,16,16,16,,,,,,,,,,,87.42662310499873,None,87.94050719799998,None,,,,,,,,,,,,,,,,,,,40023,2022_Jul_13_1556,mstfoil,2022.1.3,60.174211079947014,
SetC/116a.jpg,,0,17,17,17,,,,,,,,,,,89.92873529600183,None,90.42849182800273,None,,,,,,,,,,,,,,,,,,,40023,2022_Jul_13_1556,mstfoil,2022.1.3,60.174211079947014,
SetD/028a.jpg,,0,18,18,18,,,,,,,,,,,92.4274840299986,None,92.92932611300057,None,,,,,,,,,,,,,,,,,,,40023,2022_Jul_13_1556,mstfoil,2022.1.3,60.174211079947014,
SetC/026a.jpg,,0,19,19,19,,,,,,,,,,,94.92961089700111,None,95.42959153599804,None,,,,,,,,,,,,,,,,,,,40023,2022_Jul_13_1556,mstfoil,2022.1.3,60.174211079947014,
SetD/001a.jpg,,0,20,20,20,,,,,,,,,,,97.42963839099684,None,97.9297185999967,None,,,,,,,,,,,,,,,,,,,40023,2022_Jul_13_1556,mstfoil,2022.1.3,60.174211079947014,
SetC/123a.jpg,,0,21,21,21,,,,,,,,,,,99.931088602003,None,100.43050476299686,None,,,,,,,,,,,,,,,,,,,40023,2022_Jul_13_1556,mstfoil,2022.1.3,60.174211079947014,
SetD/147a.jpg,,0,22,22,22,,,,,,,,,,,102.43059977400117,None,102.93151392699656,None,,,,,,,,,,,,,,,,,,,40023,2022_Jul_13_1556,mstfoil,2022.1.3,60.174211079947014,
SetC/099a.jpg,,0,23,23,23,,,,,,,,,,,104.93212696199771,None,105.43977912500122,None,,,,,,,,,,,,,,,,,,,40023,2022_Jul_13_1556,mstfoil,2022.1.3,60.174211079947014,
SetD/174a.jpg,,0,24,24,24,,,,,,,,,,,107.43174319699756,None,107.93274949800252,None,,,,,,,,,,,,,,,,,,,40023,2022_Jul_13_1556,mstfoil,2022.1.3,60.174211079947014,
SetC/145a.jpg,,0,25,25,25,,,,,,,,,,,109.93379963700136,None,110.43354255199665,None,,,,,,,,,,,,,,,,,,,40023,2022_Jul_13_1556,mstfoil,2022.1.3,60.174211079947014,
SetD/027a.jpg,,0,26,26,26,,,,,,,,,,,112.43355797699769,None,112.93427121199784,None,,,,,,,,,,,,,,,,,,,40023,2022_Jul_13_1556,mstfoil,2022.1.3,60.174211079947014,
SetC/052a.jpg,,0,27,27,27,,,,,,,,,,,114.93499471499672,None,115.42206176699983,None,,,,,,,,,,,,,,,,,,,40023,2022_Jul_13_1556,mstfoil,2022.1.3,60.174211079947014,
SetD/010a.jpg,,0,28,28,28,,,,,,,,,,,117.43431188799877,None,117.91871035600343,None,,,,,,,,,,,,,,,,,,,40023,2022_Jul_13_1556,mstfoil,2022.1.3,60.174211079947014,
SetD/003a.jpg,,0,29,29,29,,,,,,,,,,,119.91979015299876,None,120.41926482500276,None,,,,,,,,,,,,,,,,,,,40023,2022_Jul_13_1556,mstfoil,2022.1.3,60.174211079947014,
SetD/096a.jpg,,0,30,30,30,,,,,,,,,,,122.4222306369993,None,122.92279048499768,None,,,,,,,,,,,,,,,,,,,40023,2022_Jul_13_1556,mstfoil,2022.1.3,60.174211079947014,
SetC/089a.jpg,,0,31,31,31,,,,,,,,,,,124.9201137400014,None,125.41957625200303,None,,,,,,,,,,,,,,,,,,,40023,2022_Jul_13_1556,mstfoil,2022.1.3,60.174211079947014,
SetD/106a.jpg,,0,32,32,32,,,,,,,,,,,127.42082932899939,None,127.9210345629981,None,,,,,,,,,,,,,,,,,,,40023,2022_Jul_13_1556,mstfoil,2022.1.3,60.174211079947014,
SetC/030a.jpg,,0,33,33,33,,,,,,,,,,,129.92229070699977,None,130.42200428700016,None,,,,,,,,,,,,,,,,,,,40023,2022_Jul_13_1556,mstfoil,2022.1.3,60.174211079947014,
SetD/101a.jpg,,0,34,34,34,,,,,,,,,,,132.42150767699786,None,132.92158915400069,None,,,,,,,,,,,,,,,,,,,40023,2022_Jul_13_1556,mstfoil,2022.1.3,60.174211079947014,
SetC/118a.jpg,,0,35,35,35,,,,,,,,,,,134.92254991299706,None,135.42284275300335,None,,,,,,,,,,,,,,,,,,,40023,2022_Jul_13_1556,mstfoil,2022.1.3,60.174211079947014,
SetC/028a.jpg,,0,36,36,36,,,,,,,,,,,137.4238236020028,None,137.92377252200095,None,,,,,,,,,,,,,,,,,,,40023,2022_Jul_13_1556,mstfoil,2022.1.3,60.174211079947014,
SetC/117a.jpg,,0,37,37,37,,,,,,,,,,,139.9242640989978,None,140.42387242100085,None,,,,,,,,,,,,,,,,,,,40023,2022_Jul_13_1556,mstfoil,2022.1.3,60.174211079947014,
SetC/168a.jpg,,0,38,38,38,,,,,,,,,,,142.42420941100136,None,142.92472690399882,None,,,,,,,,,,,,,,,,,,,40023,2022_Jul_13_1556,mstfoil,2022.1.3,60.174211079947014,
SetD/111a.jpg,,0,39,39,39,,,,,,,,,,,144.92582084400055,None,145.4251065060016,None,,,,,,,,,,,,,,,,,,,40023,2022_Jul_13_1556,mstfoil,2022.1.3,60.174211079947014,
SetC/047a.jpg,,0,40,40,40,,,,,,,,,,,147.42533139300212,None,147.9260822540018,None,,,,,,,,,,,,,,,,,,,40023,2022_Jul_13_1556,mstfoil,2022.1.3,60.174211079947014,
SetD/142a.jpg,,0,41,41,41,,,,,,,,,,,149.9267975870025,None,150.42620367200288,None,,,,,,,,,,,,,,,,,,,40023,2022_Jul_13_1556,mstfoil,2022.1.3,60.174211079947014,
SetD/126a.jpg,,0,42,42,42,,,,,,,,,,,152.42685302899918,None,152.928285107002,None,,,,,,,,,,,,,,,,,,,40023,2022_Jul_13_1556,mstfoil,2022.1.3,60.174211079947014,
SetD/122a.jpg,,0,43,43,43,,,,,,,,,,,154.92851813200105,None,155.42731480499788,None,,,,,,,,,,,,,,,,,,,40023,2022_Jul_13_1556,mstfoil,2022.1.3,60.174211079947014,
SetD/105a.jpg,,0,44,44,44,,,,,,,,,,,157.42871912699775,None,157.92888729999686,None,,,,,,,,,,,,,,,,,,,40023,2022_Jul_13_1556,mstfoil,2022.1.3,60.174211079947014,
SetD/170a.jpg,,0,45,45,45,,,,,,,,,,,159.9298146650035,None,160.42895701600355,None,,,,,,,,,,,,,,,,,,,40023,2022_Jul_13_1556,mstfoil,2022.1.3,60.174211079947014,
SetD/056a.jpg,,0,46,46,46,,,,,,,,,,,162.42957236000075,None,162.92966680399695,None,,,,,,,,,,,,,,,,,,,40023,2022_Jul_13_1556,mstfoil,2022.1.3,60.174211079947014,
SetD/154a.jpg,,0,47,47,47,,,,,,,,,,,164.93056893599714,None,165.43094794300123,None,,,,,,,,,,,,,,,,,,,40023,2022_Jul_13_1556,mstfoil,2022.1.3,60.174211079947014,
SetC/187a.jpg,targ,,,,,0,0,0,0,,,,,,,226.130032052999,None,,,226.6294562490002,None,k,18.704432718004682,226.6294562490002,None,226.6294562490002,None,226.6294562490002,None,245.3514473920004,None,245.3514473920004,None,None,245.3514473920004,None,,40023,2022_Jul_13_1556,mstfoil,2022.1.3,60.174211079947014,
SetC/192a.jpg,foil,,,,,0,1,1,1,,,,,,,250.35292573300103,None,,,250.85265017300117,None,k,21.986215085002186,250.85265017300117,None,250.85265017300117,None,250.85265017300117,None,272.8589954499985,None,272.8589954499985,None,k,272.8589954499985,None,2.9497885599994333,40023,2022_Jul_13_1556,mstfoil,2022.1.3,60.174211079947014,
SetD/028a.jpg,targ,,,,,0,2,2,2,,,,,,,275.8261972449982,None,,,276.34254485899874,None,h,3.3473468359952676,276.34254485899874,None,276.34254485899874,None,276.34254485899874,None,279.710747678997,None,279.710747678997,None,l,279.710747678997,None,2.00398806699377,40023,2022_Jul_13_1556,mstfoil,2022.1.3,60.174211079947014,
SetC/033a.jpg,foil,,,,,0,3,3,3,,,,,,,281.7428018580031,None,,,282.2474244920013,None,j,4.113399351001135,282.2474244920013,None,282.2474244920013,None,282.2474244920013,None,286.3785707749994,None,286.3785707749994,None,k,286.3785707749994,None,2.4121606089975103,40023,2022_Jul_13_1556,mstfoil,2022.1.3,60.174211079947014,
SetC/052b.jpg,lure,,,,,0,4,4,4,,,,,,,288.81223509900155,None,,,289.31244134699955,None,h,2.1781586470024195,289.31244134699955,None,289.31244134699955,None,289.31244134699955,None,291.51265139300085,None,291.51265139300085,None,l,291.51265139300085,None,1.2716546750016278,40023,2022_Jul_13_1556,mstfoil,2022.1.3,60.174211079947014,
SetD/063a.jpg,targ,,,,,0,5,5,5,,,,,,,292.8141787830027,None,,,293.3135262549986,None,h,1.5744255120007438,293.3135262549986,None,293.3135262549986,None,293.3135262549986,None,294.9138597639976,None,294.9138597639976,None,l,294.9138597639976,None,1.6614932720040088,40023,2022_Jul_13_1556,mstfoil,2022.1.3,60.174211079947014,
SetC/093a.jpg,foil,,,,,0,6,6,6,,,,,,,296.5967276739975,None,,,297.0962289969975,None,k,2.6514826210041065,297.0962289969975,None,297.0962289969975,None,297.0962289969975,None,299.7648242919968,None,299.7648242919968,None,j,299.7648242919968,None,1.704044240002986,40023,2022_Jul_13_1556,mstfoil,2022.1.3,60.174211079947014,
SetC/142a.jpg,targ,,,,,0,7,7,7,,,,,,,301.4991211710003,None,,,301.9985829490033,None,j,2.2040013519945205,301.9985829490033,None,301.9985829490033,None,301.9985829490033,None,304.23383838299924,None,304.23383838299924,None,k,304.23383838299924,None,2.0948790549955447,40023,2022_Jul_13_1556,mstfoil,2022.1.3,60.174211079947014,
SetD/137a.jpg,targ,,,,,0,8,8,8,,,,,,,306.3504240659968,None,,,306.8494714960034,None,k,3.9790646379988175,306.8494714960034,None,306.8494714960034,None,306.8494714960034,None,310.8518567249994,None,310.8518567249994,None,j,310.8518567249994,None,1.1353404530018452,40023,2022_Jul_13_1556,mstfoil,2022.1.3,60.174211079947014,
SetD/174b.jpg,lure,,,,,0,9,9,9,,,,,,,312.0175679669992,None,,,312.51811595899926,None,h,2.5064123749980354,312.51811595899926,None,312.51811595899926,None,312.51811595899926,None,315.05246715500107,None,315.05246715500107,None,k,315.05246715500107,None,1.5244689339961042,40023,2022_Jul_13_1556,mstfoil,2022.1.3,60.174211079947014,
SetD/153a.jpg,targ,,,,,0,10,10,10,,,,,,,316.6029818140014,None,,,317.11187712699757,None,j,1.7936923449960887,317.11187712699757,None,317.11187712699757,None,317.11187712699757,None,318.93724106899754,None,318.93724106899754,None,l,318.93724106899754,None,1.0370992809985182,40023,2022_Jul_13_1556,mstfoil,2022.1.3,60.174211079947014,
SetD/007a.jpg,foil,,,,,0,11,11,11,,,,,,,320.0032108669984,None,,,320.50432926099893,None,k,1.4724259759968845,320.50432926099893,None,320.50432926099893,None,320.50432926099893,None,322.00351051799953,None,322.00351051799953,None,h,322.00351051799953,None,1.2331232049982646,40023,2022_Jul_13_1556,mstfoil,2022.1.3,60.174211079947014,
SetD/001a.jpg,targ,,,,,0,12,12,12,,,,,,,323.25520021600096,None,,,323.76212774500164,None,j,3.783115653997811,323.76212774500164,None,323.76212774500164,None,323.76212774500164,None,327.5718603139976,None,327.5718603139976,None,j,327.5718603139976,None,3.9219895109999925,40023,2022_Jul_13_1556,mstfoil,2022.1.3,60.174211079947014,
SetD/025a.jpg,foil,,,,,0,13,13,13,,,,,,,331.52272344200173,None,,,332.0276460649984,None,k,2.3010556860026554,332.0276460649984,None,332.0276460649984,None,332.0276460649984,None,334.3579115800021,None,334.3579115800021,None,k,334.3579115800021,None,1.028209380005137,40023,2022_Jul_13_1556,mstfoil,2022.1.3,60.174211079947014,
SetC/190a.jpg,targ,,,,,0,14,14,14,,,,,,,335.4079603959981,None,,,335.9069443069966,None,h,1.245350541001244,335.9069443069966,None,335.9069443069966,None,335.9069443069966,None,337.1762756859971,None,337.1762756859971,None,j,337.1762756859971,None,1.3259467509997194,40023,2022_Jul_13_1556,mstfoil,2022.1.3,60.174211079947014,
SetD/142b.jpg,lure,,,,,0,15,15,15,,,,,,,338.5250352369985,None,,,339.027673468001,None,j,1.5219827050023014,339.027673468001,None,339.027673468001,None,339.027673468001,None,340.5757281729966,None,340.5757281729966,None,l,340.5757281729966,None,1.1776510300041991,40023,2022_Jul_13_1556,mstfoil,2022.1.3,60.174211079947014,
SetD/109a.jpg,targ,,,,,0,16,16,16,,,,,,,341.77544118199876,None,,,342.27543074900314,None,k,1.8177798589968006,342.27543074900314,None,342.27543074900314,None,342.27543074900314,None,344.1265657730037,None,344.1265657730037,None,j,344.1265657730037,None,0.7653391779967933,40023,2022_Jul_13_1556,mstfoil,2022.1.3,60.174211079947014,
SetC/028b.jpg,lure,,,,,0,17,17,17,,,,,,,344.90960919600184,None,,,345.4270744070018,None,h,1.2085114380024606,345.4270744070018,None,345.4270744070018,None,345.4270744070018,None,346.6606257809981,None,346.6606257809981,None,j,346.6606257809981,None,1.246173159997852,40023,2022_Jul_13_1556,mstfoil,2022.1.3,60.174211079947014,
SetD/003b.jpg,lure,,,,,0,18,18,18,,,,,,,347.92787421499816,None,,,348.44431259499834,None,h,1.8923725889981142,348.44431259499834,None,348.44431259499834,None,348.44431259499834,None,350.3606828120028,None,350.3606828120028,None,k,350.3606828120028,None,0.9209592180050095,40023,2022_Jul_13_1556,mstfoil,2022.1.3,60.174211079947014,
SetD/098a.jpg,targ,,,,,0,19,19,19,,,,,,,351.3104761029972,None,,,351.82760175599833,None,k,1.838895811997645,351.82760175599833,None,351.82760175599833,None,351.82760175599833,None,353.69607433799683,None,353.69607433799683,None,l,353.69607433799683,None,0.746696891997999,40023,2022_Jul_13_1556,mstfoil,2022.1.3,60.174211079947014,
SetD/027b.jpg,lure,,,,,0,20,20,20,,,,,,,354.46236295499693,None,,,354.96249456900114,None,j,1.3026514099983615,354.96249456900114,None,354.96249456900114,None,354.96249456900114,None,356.29548886200064,None,356.29548886200064,None,k,356.29548886200064,None,1.432148091000272,40023,2022_Jul_13_1556,mstfoil,2022.1.3,60.174211079947014,
SetD/011a.jpg,targ,,,,,0,21,21,21,,,,,,,357.74657790199853,None,,,358.2607289410007,None,h,1.1880525730011868,358.2607289410007,None,358.2607289410007,None,358.2607289410007,None,359.4808955249973,None,359.4808955249973,None,j,359.4808955249973,None,0.6878939379967051,40023,2022_Jul_13_1556,mstfoil,2022.1.3,60.174211079947014,
SetC/019a.jpg,targ,,,,,0,22,22,22,,,,,,,360.19789537799807,None,,,360.6977862260028,None,h,1.1358657150049112,360.6977862260028,None,360.6977862260028,None,360.6977862260028,None,361.8644855500024,None,361.8644855500024,None,j,361.8644855500024,None,0.8241482110024663,40023,2022_Jul_13_1556,mstfoil,2022.1.3,60.174211079947014,
SetD/147a.jpg,targ,,,,,0,23,23,23,,,,,,,362.71452603399666,None,,,363.2155251000004,None,j,1.3742656989998068,363.2155251000004,None,363.2155251000004,None,363.2155251000004,None,364.61562447399774,None,364.61562447399774,None,l,364.61562447399774,None,0.5928967220024788,40023,2022_Jul_13_1556,mstfoil,2022.1.3,60.174211079947014,
SetD/154b.jpg,lure,,,,,0,24,24,24,,,,,,,365.23184243300057,None,,,365.7425246690036,None,j,1.5021336849968066,365.7425246690036,None,365.7425246690036,None,365.7425246690036,None,367.276555258999,None,367.276555258999,None,k,367.276555258999,None,0.6656346140007372,40023,2022_Jul_13_1556,mstfoil,2022.1.3,60.174211079947014,
SetC/168b.jpg,lure,,,,,0,25,25,25,,,,,,,367.96579641899734,None,,,368.4769374259995,None,j,1.2088947509982972,368.4769374259995,None,368.4769374259995,None,368.4769374259995,None,369.7170967589991,None,369.7170967589991,None,l,369.7170967589991,None,0.45249330500519136,40023,2022_Jul_13_1556,mstfoil,2022.1.3,60.174211079947014,
SetC/089b.jpg,lure,,,,,0,26,26,26,,,,,,,370.19951660699735,None,,,370.69975521299784,None,j,1.3597823060044902,370.69975521299784,None,370.69975521299784,None,370.69975521299784,None,372.08382088500366,None,372.08382088500366,None,k,372.08382088500366,None,1.3818012589981663,40023,2022_Jul_13_1556,mstfoil,2022.1.3,60.174211079947014,
SetD/187a.jpg,foil,,,,,0,27,27,27,,,,,,,373.4843606729992,None,,,373.99289176300226,None,k,2.127706829996896,373.99289176300226,None,373.99289176300226,None,373.99289176300226,None,376.15184792200307,None,376.15184792200307,None,k,376.15184792200307,None,0.8911873649994959,40023,2022_Jul_13_1556,mstfoil,2022.1.3,60.174211079947014,
SetD/155a.jpg,foil,,,,,0,28,28,28,,,,,,,377.0677535979994,None,,,377.5679319569972,None,j,2.3324684850013,377.5679319569972,None,377.5679319569972,None,377.5679319569972,None,379.91919277099805,None,379.91919277099805,None,k,379.91919277099805,None,0.7461447140012751,40023,2022_Jul_13_1556,mstfoil,2022.1.3,60.174211079947014,
SetD/126b.jpg,lure,,,,,0,29,29,29,,,,,,,380.68534884999826,None,,,381.2025457799973,None,j,1.6452206520043546,381.2025457799973,None,381.2025457799973,None,381.2025457799973,None,382.86955356300314,None,382.86955356300314,None,l,382.86955356300314,None,1.2719555360017694,40023,2022_Jul_13_1556,mstfoil,2022.1.3,60.174211079947014,
SetC/039a.jpg,targ,,,,,0,30,30,30,,,,,,,384.1700085880002,None,,,384.67510631200275,None,h,1.457530849998875,384.67510631200275,None,384.67510631200275,None,384.67510631200275,None,386.15402431300026,None,386.15402431300026,None,l,386.15402431300026,None,0.9685235829965677,40023,2022_Jul_13_1556,mstfoil,2022.1.3,60.174211079947014,
SetD/010b.jpg,lure,,,,,0,31,31,31,,,,,,,387.15359517600155,None,,,387.658575706002,None,h,2.861397421998845,387.658575706002,None,387.658575706002,None,387.658575706002,None,390.53902278900205,None,390.53902278900205,None,k,390.53902278900205,None,0.8246043050021399,40023,2022_Jul_13_1556,mstfoil,2022.1.3,60.174211079947014,
SetD/046a.jpg,foil,,,,,0,32,32,32,,,,,,,391.38803420600016,None,,,391.88843669500056,None,k,1.185082248004619,391.88843669500056,None,391.88843669500056,None,391.88843669500056,None,393.10631516399735,None,393.10631516399735,None,l,393.10631516399735,None,0.5409868799979449,40023,2022_Jul_13_1556,mstfoil,2022.1.3,60.174211079947014,
SetD/150a.jpg,foil,,,,,0,33,33,33,,,,,,,393.6732092530001,None,,,394.17252626499976,None,k,3.6707983710002736,394.17252626499976,None,394.17252626499976,None,394.17252626499976,None,397.87438966699847,None,397.87438966699847,None,l,397.87438966699847,None,0.5426730910039623,40023,2022_Jul_13_1556,mstfoil,2022.1.3,60.174211079947014,
SetD/105b.jpg,lure,,,,,0,34,34,34,,,,,,,398.44089822599926,None,,,398.94063203500264,None,k,2.255021721997764,398.94063203500264,None,398.94063203500264,None,398.94063203500264,None,401.2242502709996,None,401.2242502709996,None,l,401.2242502709996,None,0.4439959109949996,40023,2022_Jul_13_1556,mstfoil,2022.1.3,60.174211079947014,
SetD/101b.jpg,lure,,,,,0,35,35,35,,,,,,,401.69061648200295,None,,,402.20797921500343,None,j,1.2826047459966503,402.20797921500343,None,402.20797921500343,None,402.20797921500343,None,403.5084566930018,None,403.5084566930018,None,k,403.5084566930018,None,0.7808105639996938,40023,2022_Jul_13_1556,mstfoil,2022.1.3,60.174211079947014,
SetC/145b.jpg,lure,,,,,0,36,36,36,,,,,,,404.3087622620005,None,,,404.8243068349984,None,j,3.3460748590005096,404.8243068349984,None,404.8243068349984,None,404.8243068349984,None,408.193510627003,None,408.193510627003,None,l,408.193510627003,None,1.3380712189973565,40023,2022_Jul_13_1556,mstfoil,2022.1.3,60.174211079947014,
SetC/047b.jpg,lure,,,,,0,37,37,37,,,,,,,409.56048849500075,None,,,410.0741335030034,None,h,0.8748999659947003,410.0741335030034,None,410.0741335030034,None,410.0741335030034,None,410.9769122450016,None,410.9769122450016,None,l,410.9769122450016,None,0.5120682449996821,40023,2022_Jul_13_1556,mstfoil,2022.1.3,60.174211079947014,
SetD/018a.jpg,targ,,,,,0,38,38,38,,,,,,,411.5102175790016,None,,,412.02353686599963,None,j,1.0966038480037241,412.02353686599963,None,412.02353686599963,None,412.02353686599963,None,413.14418860000296,None,413.14418860000296,None,k,413.14418860000296,None,0.4709682979955687,40023,2022_Jul_13_1556,mstfoil,2022.1.3,60.174211079947014,
SetD/056b.jpg,lure,,,,,0,39,39,39,,,,,,,413.64510004399926,None,,,414.15808872199705,None,k,1.4257100699978764,414.15808872199705,None,414.15808872199705,None,414.15808872199705,None,415.61161889600044,None,415.61161889600044,None,l,415.61161889600044,None,0.41098741099995095,40023,2022_Jul_13_1556,mstfoil,2022.1.3,60.174211079947014,
SetC/026a.jpg,targ,,,,,0,40,40,40,,,,,,,416.04536047200236,None,,,416.5445507569966,None,h,2.830261322000297,416.5445507569966,None,416.5445507569966,None,416.5445507569966,None,419.3962092590009,None,419.3962092590009,None,k,419.3962092590009,None,0.7774067499994999,40023,2022_Jul_13_1556,mstfoil,2022.1.3,60.174211079947014,
SetD/031a.jpg,targ,,,,,0,41,41,41,,,,,,,420.1962419190022,None,,,420.70732128300006,None,k,3.988499191997107,420.70732128300006,None,420.70732128300006,None,420.70732128300006,None,424.714220009002,None,424.714220009002,None,l,424.714220009002,None,0.4541320190037368,40023,2022_Jul_13_1556,mstfoil,2022.1.3,60.174211079947014,
SetD/170b.jpg,lure,,,,,0,42,42,42,,,,,,,425.1978914020001,None,,,425.6974962210006,None,k,2.035701494998648,425.6974962210006,None,425.6974962210006,None,425.6974962210006,None,427.76428243100236,None,427.76428243100236,None,j,427.76428243100236,None,0.9701498639988131,40023,2022_Jul_13_1556,mstfoil,2022.1.3,60.174211079947014,
SetC/030b.jpg,lure,,,,,0,43,43,43,,,,,,,428.7651967790007,None,,,429.27356201699877,None,j,3.5219608819970745,429.27356201699877,None,429.27356201699877,None,429.27356201699877,None,432.81640603199776,None,432.81640603199776,None,k,432.81640603199776,None,1.2727917820011498,40023,2022_Jul_13_1556,mstfoil,2022.1.3,60.174211079947014,
SetC/116a.jpg,targ,,,,,0,44,44,44,,,,,,,434.116258975002,None,,,434.61607278099837,None,k,1.8693365180006367,434.61607278099837,None,434.61607278099837,None,434.61607278099837,None,436.51630700499663,None,436.51630700499663,None,k,436.51630700499663,None,1.0265351769994595,40023,2022_Jul_13_1556,mstfoil,2022.1.3,60.174211079947014,
SetD/122b.jpg,lure,,,,,0,45,45,45,,,,,,,437.5664682790011,None,,,438.0724197340023,None,j,3.18273307599884,438.0724197340023,None,438.0724197340023,None,438.0724197340023,None,441.285001010001,None,441.285001010001,None,j,441.285001010001,None,2.58002120799938,40023,2022_Jul_13_1556,mstfoil,2022.1.3,60.174211079947014,
SetD/096b.jpg,lure,,,,,0,46,46,46,,,,,,,443.8855549159998,None,,,444.38907098899654,None,j,4.841923549996864,444.38907098899654,None,444.38907098899654,None,444.38907098899654,None,449.25312889299676,None,449.25312889299676,None,k,449.25312889299676,None,1.3840636599998106,40023,2022_Jul_13_1556,mstfoil,2022.1.3,60.174211079947014,
SetC/117b.jpg,lure,,,,,0,47,47,47,,,,,,,450.653680139003,None,,,451.17088047700236,None,j,3.234880477000843,451.17088047700236,None,451.17088047700236,None,451.17088047700236,None,454.4218819259986,None,454.4218819259986,None,l,454.4218819259986,None,0.9513210469958722,40023,2022_Jul_13_1556,mstfoil,2022.1.3,60.174211079947014,
SetD/111b.jpg,lure,,,,,0,48,48,48,,,,,,,455.4047399569972,None,,,455.90484287699655,None,j,1.290810529004375,455.90484287699655,None,455.90484287699655,None,455.90484287699655,None,457.2213690540011,None,457.2213690540011,None,k,457.2213690540011,None,0.6492724760028068,40023,2022_Jul_13_1556,mstfoil,2022.1.3,60.174211079947014,
SetC/118b.jpg,lure,,,,,0,49,49,49,,,,,,,457.8897077599977,None,,,458.40602390399727,None,k,1.7482542500001728,458.40602390399727,None,458.40602390399727,None,458.40602390399727,None,460.17358367900306,None,460.17358367900306,None,j,460.17358367900306,None,0.9368314510065829,40023,2022_Jul_13_1556,mstfoil,2022.1.3,60.174211079947014,
SetC/043a.jpg,foil,,,,,0,50,50,50,,,,,,,461.13986101200135,None,,,461.64031833600166,None,j,2.080040797998663,461.64031833600166,None,461.64031833600166,None,461.64031833600166,None,463.74121585099783,None,463.74121585099783,None,k,463.74121585099783,None,0.541575315000955,40023,2022_Jul_13_1556,mstfoil,2022.1.3,60.174211079947014,
SetD/106b.jpg,lure,,,,,0,51,51,51,,,,,,,464.30699279200053,None,,,464.82208296300087,None,k,2.0144187549958588,464.82208296300087,None,464.82208296300087,None,464.82208296300087,None,466.85829468999873,None,466.85829468999873,None,l,466.85829468999873,None,0.4731492499995511,40023,2022_Jul_13_1556,mstfoil,2022.1.3,60.174211079947014,
SetC/132a.jpg,foil,,,,,0,52,52,52,,,,,,,467.357312234999,None,,,467.87071958999877,None,k,1.2607104449998587,467.87071958999877,None,467.87071958999877,None,467.87071958999877,None,469.1590704449991,None,469.1590704449991,None,k,469.1590704449991,None,1.3672373129957123,40023,2022_Jul_13_1556,mstfoil,2022.1.3,60.174211079947014,
SetD/042a.jpg,foil,,,,,0,53,53,53,,,,,,,470.5594485420006,None,,,471.0707796409988,None,j,1.6379852469981415,471.0707796409988,None,471.0707796409988,None,471.0707796409988,None,472.73723753800004,None,472.73723753800004,None,j,472.73723753800004,None,0.8602706370002124,40023,2022_Jul_13_1556,mstfoil,2022.1.3,60.174211079947014,
SetC/123a.jpg,targ,,,,,0,54,54,54,,,,,,,473.6269969519999,None,,,474.1379844330004,None,k,2.823091026999464,474.1379844330004,None,474.1379844330004,None,474.1379844330004,None,476.99382233600045,None,476.99382233600045,None,k,476.99382233600045,None,1.126030500003253,40023,2022_Jul_13_1556,mstfoil,2022.1.3,60.174211079947014,
SetC/099a.jpg,targ,,,,,0,55,55,55,,,,,,,478.1439944189988,None,,,478.6534776330009,None,h,1.2774406530006672,478.6534776330009,None,478.6534776330009,None,478.6534776330009,None,479.96129727600055,None,479.96129727600055,None,l,479.96129727600055,None,1.7134126929959166,40023,2022_Jul_13_1556,mstfoil,2022.1.3,60.174211079947014,
SetC/069a.jpg,targ,,,,,0,56,56,56,,,,,,,481.6945186180019,None,,,482.1947714370035,None,k,1.5610585629983689,482.1947714370035,None,482.1947714370035,None,482.1947714370035,None,483.7796882399998,None,483.7796882399998,None,j,483.7796882399998,None,1.0110319540035562,40023,2022_Jul_13_1556,mstfoil,2022.1.3,60.174211079947014,
SetC/141a.jpg,targ,,,,,0,57,57,57,,,,,,,484.8121911459966,None,,,485.3208600549988,None,k,1.764798078002059,485.3208600549988,None,485.3208600549988,None,485.3208600549988,None,487.1125684419967,None,487.1125684419967,None,h,487.1125684419967,None,0.9180382870035828,40023,2022_Jul_13_1556,mstfoil,2022.1.3,60.174211079947014,
SetC/002a.jpg,targ,,,,,0,58,58,58,,,,,,,488.06317637999746,None,,,488.5639104630027,None,h,1.1204015690018423,488.5639104630027,None,488.5639104630027,None,488.5639104630027,None,489.7146247810015,None,489.7146247810015,None,l,489.7146247810015,None,0.7233867039976758,40023,2022_Jul_13_1556,mstfoil,2022.1.3,60.174211079947014,
SetD/161a.jpg,targ,,,,,0,59,59,59,,,,,,,490.46457408399874,None,,,490.98649713300256,None,k,2.421350133998203,490.98649713300256,None,490.98649713300256,None,490.98649713300256,None,493.43226490000234,None,493.43226490000234,None,l,493.43226490000234,None,1.5168046510007116,40023,2022_Jul_13_1556,mstfoil,2022.1.3,60.174211079947014,
,,,,,,,,,,,,,,,,,,,,,,,,,,,,,,,,,,,,,,40023,2022_Jul_13_1556,mstfoil,2022.1.3,60.174211079947014,
SetC/175a.jpg,,0,0,0,0,,,,,,,,,,,502.55083527399984,None,503.0525138180019,None,,,,,,,,,,,,,,,,,,,40023,2022_Jul_13_1556,mstfoil,2022.1.3,60.174211079947014,
SetC/104a.jpg,,0,1,1,1,,,,,,,,,,,505.05089716699877,None,505.5507071969987,None,,,,,,,,,,,,,,,,,,,40023,2022_Jul_13_1556,mstfoil,2022.1.3,60.174211079947014,
SetD/121a.jpg,,0,2,2,2,,,,,,,,,,,507.55188789599924,None,508.0524986879973,None,,,,,,,,,,,,,,,,,,,40023,2022_Jul_13_1556,mstfoil,2022.1.3,60.174211079947014,
SetC/151a.jpg,,0,3,3,3,,,,,,,,,,,510.0529396810016,None,510.55219736599975,None,,,,,,,,,,,,,,,,,,,40023,2022_Jul_13_1556,mstfoil,2022.1.3,60.174211079947014,
SetD/100a.jpg,,0,4,4,4,,,,,,,,,,,512.5524439540022,None,513.0532053639981,None,,,,,,,,,,,,,,,,,,,40023,2022_Jul_13_1556,mstfoil,2022.1.3,60.174211079947014,
SetC/114a.jpg,,0,5,5,5,,,,,,,,,,,515.0533658749991,None,515.5541301699996,None,,,,,,,,,,,,,,,,,,,40023,2022_Jul_13_1556,mstfoil,2022.1.3,60.174211079947014,
SetC/038a.jpg,,0,6,6,6,,,,,,,,,,,517.5540443560021,None,518.0541326989987,None,,,,,,,,,,,,,,,,,,,40023,2022_Jul_13_1556,mstfoil,2022.1.3,60.174211079947014,
SetC/055a.jpg,,0,7,7,7,,,,,,,,,,,520.0551624750005,None,520.5553328829992,None,,,,,,,,,,,,,,,,,,,40023,2022_Jul_13_1556,mstfoil,2022.1.3,60.174211079947014,
SetD/055a.jpg,,0,8,8,8,,,,,,,,,,,522.5548299970033,None,523.0558731799974,None,,,,,,,,,,,,,,,,,,,40023,2022_Jul_13_1556,mstfoil,2022.1.3,60.174211079947014,
SetC/148a.jpg,,0,9,9,9,,,,,,,,,,,525.056491743002,None,525.5557744300022,None,,,,,,,,,,,,,,,,,,,40023,2022_Jul_13_1556,mstfoil,2022.1.3,60.174211079947014,
SetD/002a.jpg,,0,10,10,10,,,,,,,,,,,527.5568538500011,None,528.0573860320001,None,,,,,,,,,,,,,,,,,,,40023,2022_Jul_13_1556,mstfoil,2022.1.3,60.174211079947014,
SetD/019a.jpg,,0,11,11,11,,,,,,,,,,,530.0579368730032,None,530.5577743239992,None,,,,,,,,,,,,,,,,,,,40023,2022_Jul_13_1556,mstfoil,2022.1.3,60.174211079947014,
SetC/008a.jpg,,0,12,12,12,,,,,,,,,,,532.5577126499993,None,533.0580142320032,None,,,,,,,,,,,,,,,,,,,40023,2022_Jul_13_1556,mstfoil,2022.1.3,60.174211079947014,
SetC/067a.jpg,,0,13,13,13,,,,,,,,,,,535.0593828010024,None,535.5591101329992,None,,,,,,,,,,,,,,,,,,,40023,2022_Jul_13_1556,mstfoil,2022.1.3,60.174211079947014,
SetC/078a.jpg,,0,14,14,14,,,,,,,,,,,537.5593523860007,None,538.0602738860034,None,,,,,,,,,,,,,,,,,,,40023,2022_Jul_13_1556,mstfoil,2022.1.3,60.174211079947014,
SetC/160a.jpg,,0,15,15,15,,,,,,,,,,,540.0603115659978,None,540.5673793690003,None,,,,,,,,,,,,,,,,,,,40023,2022_Jul_13_1556,mstfoil,2022.1.3,60.174211079947014,
SetC/060a.jpg,,0,16,16,16,,,,,,,,,,,542.5609557880016,None,543.0605169409973,None,,,,,,,,,,,,,,,,,,,40023,2022_Jul_13_1556,mstfoil,2022.1.3,60.174211079947014,
SetD/089a.jpg,,0,17,17,17,,,,,,,,,,,545.0618280729977,None,545.5666085740013,None,,,,,,,,,,,,,,,,,,,40023,2022_Jul_13_1556,mstfoil,2022.1.3,60.174211079947014,
SetD/030a.jpg,,0,18,18,18,,,,,,,,,,,547.5611857999975,None,548.0619899000012,None,,,,,,,,,,,,,,,,,,,40023,2022_Jul_13_1556,mstfoil,2022.1.3,60.174211079947014,
SetD/176a.jpg,,0,19,19,19,,,,,,,,,,,550.0626391870028,None,550.5621203850023,None,,,,,,,,,,,,,,,,,,,40023,2022_Jul_13_1556,mstfoil,2022.1.3,60.174211079947014,
SetD/068a.jpg,,0,20,20,20,,,,,,,,,,,552.5636733959982,None,553.0662046869984,None,,,,,,,,,,,,,,,,,,,40023,2022_Jul_13_1556,mstfoil,2022.1.3,60.174211079947014,
SetD/058a.jpg,,0,21,21,21,,,,,,,,,,,555.0643876429967,None,555.5646688709967,None,,,,,,,,,,,,,,,,,,,40023,2022_Jul_13_1556,mstfoil,2022.1.3,60.174211079947014,
SetC/146a.jpg,,0,22,22,22,,,,,,,,,,,557.5633057899977,None,558.0641650559992,None,,,,,,,,,,,,,,,,,,,40023,2022_Jul_13_1556,mstfoil,2022.1.3,60.174211079947014,
SetC/027a.jpg,,0,23,23,23,,,,,,,,,,,560.065297203997,None,560.5652063949965,None,,,,,,,,,,,,,,,,,,,40023,2022_Jul_13_1556,mstfoil,2022.1.3,60.174211079947014,
SetC/165a.jpg,,0,24,24,24,,,,,,,,,,,562.565241737997,None,563.0831975170004,None,,,,,,,,,,,,,,,,,,,40023,2022_Jul_13_1556,mstfoil,2022.1.3,60.174211079947014,
SetC/066a.jpg,,0,25,25,25,,,,,,,,,,,565.0667794710025,None,565.5659838319989,None,,,,,,,,,,,,,,,,,,,40023,2022_Jul_13_1556,mstfoil,2022.1.3,60.174211079947014,
SetC/048a.jpg,,0,26,26,26,,,,,,,,,,,567.5495005539997,None,568.0507866159969,None,,,,,,,,,,,,,,,,,,,40023,2022_Jul_13_1556,mstfoil,2022.1.3,60.174211079947014,
SetC/115a.jpg,,0,27,27,27,,,,,,,,,,,570.0512137749974,None,570.5510282440009,None,,,,,,,,,,,,,,,,,,,40023,2022_Jul_13_1556,mstfoil,2022.1.3,60.174211079947014,
SetD/043a.jpg,,0,28,28,28,,,,,,,,,,,572.5518892670007,None,573.0659092880014,None,,,,,,,,,,,,,,,,,,,40023,2022_Jul_13_1556,mstfoil,2022.1.3,60.174211079947014,
SetD/039a.jpg,,0,29,29,29,,,,,,,,,,,575.0525929830037,None,575.5660004800011,None,,,,,,,,,,,,,,,,,,,40023,2022_Jul_13_1556,mstfoil,2022.1.3,60.174211079947014,
SetC/111a.jpg,,0,30,30,30,,,,,,,,,,,577.5531485320025,None,578.0533190220012,None,,,,,,,,,,,,,,,,,,,40023,2022_Jul_13_1556,mstfoil,2022.1.3,60.174211079947014,
SetC/161a.jpg,,0,31,31,31,,,,,,,,,,,580.0533695010017,None,580.5540716210016,None,,,,,,,,,,,,,,,,,,,40023,2022_Jul_13_1556,mstfoil,2022.1.3,60.174211079947014,
SetD/059a.jpg,,0,32,32,32,,,,,,,,,,,582.553471776002,None,583.0551649800036,None,,,,,,,,,,,,,,,,,,,40023,2022_Jul_13_1556,mstfoil,2022.1.3,60.174211079947014,
SetC/011a.jpg,,0,33,33,33,,,,,,,,,,,585.0555158310017,None,585.5546795979972,None,,,,,,,,,,,,,,,,,,,40023,2022_Jul_13_1556,mstfoil,2022.1.3,60.174211079947014,
SetD/084a.jpg,,0,34,34,34,,,,,,,,,,,587.5550740600011,None,588.0558425479976,None,,,,,,,,,,,,,,,,,,,40023,2022_Jul_13_1556,mstfoil,2022.1.3,60.174211079947014,
,,,,,,,,,,,,,,,,590.0566454660002,None,,,,,,,,,,,,,,,,,,,,,,,,,,
